@MEASUREMENT_RADIUS 7 cm
# lambda : Angstroms 
# tr : transmission ([0,1]) 
# end
6627.01 0
6632.01 0.000442607
6637.01 0.00135508
6642.01 0.00231782
6647.01 0.00331719
6652.01 0.00361728
6657.01 0.00383571
6662.01 0.00406946
6667.01 0.00432109
6672.01 0.0045909
6677.01 0.00487896
6682.01 0.00518682
6687.01 0.00551377
6692.01 0.00586463
6697.01 0.00624234
6702.01 0.00664582
6707.01 0.00708161
6712.01 0.00754833
6717.01 0.00804959
6722.01 0.00858915
6727.01 0.00916564
6732.01 0.00978513
6737.01 0.0104501
6742.01 0.0111642
6747.01 0.0119393
6752.01 0.012774
6757.01 0.0136693
6762.01 0.0146359
6767.01 0.0156738
6772.01 0.0167925
6777.01 0.0180034
6782.01 0.0193036
6787.01 0.0207101
6792.01 0.0222285
6797.01 0.0238642
6802.01 0.0256393
6807.01 0.0275524
6812.01 0.0296134
6817.01 0.0318443
6822.01 0.0342448
6827.01 0.0368473
6832.01 0.039674
6837.01 0.0427263
6842.01 0.0460472
6847.01 0.0496479
6852.01 0.0535544
6857.01 0.0578159
6862.01 0.0624584
6867.01 0.0675087
6872.01 0.072983
6877.01 0.0788663
6882.01 0.085201
6887.01 0.092033
6892.01 0.0994093
6897.01 0.107404
6902.01 0.116041
6907.01 0.125339
6912.01 0.135395
6917.01 0.146208
6922.01 0.157864
6927.01 0.170463
6932.01 0.18399
6937.01 0.198534
6942.01 0.214101
6947.01 0.230619
6952.01 0.248162
6957.01 0.266681
6962.01 0.286209
6967.01 0.306896
6972.01 0.328661
6977.01 0.351506
6982.01 0.375359
6987.01 0.399989
6992.01 0.425376
6997.01 0.451424
7002.01 0.47792
7007.01 0.50487
7012.01 0.532074
7017.01 0.559326
7022.01 0.586572
7027.01 0.613522
7032.01 0.640016
7037.01 0.665983
7042.01 0.691099
7047.01 0.715293
7052.01 0.738488
7057.01 0.760469
7062.01 0.781353
7067.01 0.800989
7072.01 0.819257
7077.01 0.836295
7082.01 0.851939
7087.01 0.866258
7092.01 0.879294
7097.01 0.890944
7102.01 0.901338
7107.01 0.910485
7112.01 0.918456
7117.01 0.9254
7122.01 0.931398
7127.01 0.936569
7132.01 0.940963
7137.01 0.944654
7142.01 0.947718
7147.01 0.950251
7152.01 0.952284
7157.01 0.953909
7162.01 0.955142
7167.01 0.95608
7172.01 0.956742
7177.01 0.957172
7182.01 0.957407
7187.01 0.957497
7192.01 0.95748
7197.01 0.957374
7202.01 0.957231
7207.01 0.956998
7212.01 0.956788
7217.01 0.956549
7222.01 0.956263
7227.01 0.956017
7232.01 0.955746
7237.01 0.955522
7242.01 0.955363
7247.01 0.955224
7252.01 0.955135
7257.01 0.955091
7262.01 0.95509
7267.01 0.955134
7272.01 0.955202
7277.01 0.955297
7282.01 0.955419
7287.01 0.95557
7292.01 0.955746
7297.01 0.955932
7302.01 0.956154
7307.01 0.95644
7312.01 0.956731
7317.01 0.95705
7322.01 0.957368
7327.01 0.95765
7332.01 0.957927
7337.01 0.958225
7342.01 0.958469
7347.01 0.958698
7352.01 0.958945
7357.01 0.959088
7362.01 0.959225
7367.01 0.95932
7372.01 0.959364
7377.01 0.959387
7382.01 0.959383
7387.01 0.959324
7392.01 0.959232
7397.01 0.959103
7402.01 0.958922
7407.01 0.958693
7412.01 0.958393
7417.01 0.958046
7422.01 0.957627
7427.01 0.95714
7432.01 0.956595
7437.01 0.95599
7442.01 0.955363
7447.01 0.954735
7452.01 0.95408
7457.01 0.953367
7462.01 0.952603
7467.01 0.951753
7472.01 0.950873
7477.01 0.949997
7482.01 0.949106
7487.01 0.948205
7492.01 0.947284
7497.01 0.946368
7502.01 0.945406
7507.01 0.944442
7512.01 0.943486
7517.01 0.942493
7522.01 0.941537
7527.01 0.940631
7532.01 0.93974
7537.01 0.938886
7542.01 0.938038
7547.01 0.937199
7552.01 0.936404
7557.01 0.935648
7562.01 0.934954
7567.01 0.934336
7572.01 0.933762
7577.01 0.933234
7582.01 0.932771
7587.01 0.932352
7592.01 0.932006
7597.01 0.931765
7602.01 0.931586
7607.01 0.931516
7612.01 0.931553
7617.01 0.93164
7622.01 0.931805
7627.01 0.93205
7632.01 0.932346
7637.01 0.932751
7642.01 0.933251
7647.01 0.933809
7652.01 0.934439
7657.01 0.93512
7662.01 0.935863
7667.01 0.936696
7672.01 0.937621
7677.01 0.938612
7682.01 0.939694
7687.01 0.940864
7692.01 0.942046
7697.01 0.943256
7702.01 0.944531
7707.01 0.945835
7712.01 0.947206
7717.01 0.94866
7722.01 0.95012
7727.01 0.951574
7732.01 0.953026
7737.01 0.954466
7742.01 0.955952
7747.01 0.957443
7752.01 0.958955
7757.01 0.96043
7762.01 0.961868
7767.01 0.963275
7772.01 0.964623
7777.01 0.965972
7782.01 0.967269
7787.01 0.968488
7792.01 0.96959
7797.01 0.970598
7802.01 0.971506
7807.01 0.972365
7812.01 0.973198
7817.01 0.973936
7822.01 0.974591
7827.01 0.975143
7832.01 0.975565
7837.01 0.975914
7842.01 0.976152
7847.01 0.976255
7852.01 0.976286
7857.01 0.976239
7862.01 0.976096
7867.01 0.975877
7872.01 0.97556
7877.01 0.975103
7882.01 0.974596
7887.01 0.973994
7892.01 0.973344
7897.01 0.972663
7902.01 0.971868
7907.01 0.971038
7912.01 0.970177
7917.01 0.969308
7922.01 0.968421
7927.01 0.967498
7932.01 0.966554
7937.01 0.965568
7942.01 0.964557
7947.01 0.963595
7952.01 0.962642
7957.01 0.961702
7962.01 0.960825
7967.01 0.959974
7972.01 0.959187
7977.01 0.958475
7982.01 0.957772
7987.01 0.957141
7992.01 0.956578
7997.01 0.956029
8002.01 0.955611
8007.01 0.955292
8012.01 0.955033
8017.01 0.954913
8022.01 0.954905
8027.01 0.955087
8032.01 0.955337
8037.01 0.955561
8042.01 0.955768
8047.01 0.955825
8052.01 0.955829
8057.01 0.955862
8062.01 0.955909
8067.01 0.955947
8072.01 0.955956
8077.01 0.955931
8082.01 0.955868
8087.01 0.95576
8092.01 0.955602
8097.01 0.955365
8102.01 0.955032
8107.01 0.954588
8112.01 0.954022
8117.01 0.953333
8122.01 0.952496
8127.01 0.95146
8132.01 0.950236
8137.01 0.948801
8142.01 0.947161
8147.01 0.945343
8152.01 0.943331
8157.01 0.941069
8162.01 0.938541
8167.01 0.935724
8172.01 0.932646
8177.01 0.929347
8182.01 0.925853
8187.01 0.922151
8192.01 0.918157
8197.01 0.913843
8202.01 0.909254
8207.01 0.904454
8212.01 0.899524
8217.01 0.894488
8222.01 0.889288
8227.01 0.883855
8232.01 0.878209
8237.01 0.872429
8242.01 0.866612
8247.01 0.860846
8252.01 0.855133
8257.01 0.849362
8262.01 0.843532
8267.01 0.837719
8272.01 0.831981
8277.01 0.826417
8282.01 0.82109
8287.01 0.815932
8292.01 0.810879
8297.01 0.805929
8302.01 0.801184
8307.01 0.796678
8312.01 0.792483
8317.01 0.788605
8322.01 0.784977
8327.01 0.781558
8332.01 0.778356
8337.01 0.775405
8342.01 0.772718
8347.01 0.770287
8352.01 0.768074
8357.01 0.765989
8362.01 0.763965
8367.01 0.761982
8372.01 0.759999
8377.01 0.757947
8382.01 0.75575
8387.01 0.753259
8392.01 0.750324
8397.01 0.74687
8402.01 0.742818
8407.01 0.738072
8412.01 0.732592
8417.01 0.726206
8422.01 0.718617
8427.01 0.709665
8432.01 0.699383
8437.01 0.687747
8442.01 0.674811
8447.01 0.660681
8452.01 0.6451
8457.01 0.627734
8462.01 0.608669
8467.01 0.588221
8472.01 0.566662
8477.01 0.544259
8482.01 0.521109
8487.01 0.497055
8492.01 0.471996
8497.01 0.446337
8502.01 0.420685
8507.01 0.395478
8512.01 0.370819
8517.01 0.346595
8522.01 0.322676
8527.01 0.299182
8532.01 0.276407
8537.01 0.254837
8542.01 0.234779
8547.01 0.216013
8552.01 0.198255
8557.01 0.181438
8562.01 0.165618
8567.01 0.150905
8572.01 0.137512
8577.01 0.125466
8582.01 0.114522
8587.01 0.104405
8592.01 0.0951024
8597.01 0.0866056
8602.01 0.078887
8607.01 0.0719941
8612.01 0.065848
8617.01 0.0602591
8622.01 0.0551242
8627.01 0.0504305
8632.01 0.0461939
8637.01 0.0423877
8642.01 0.0389806
8647.01 0.0359267
8652.01 0.0331269
8657.01 0.0305336
8662.01 0.0281547
8667.01 0.0259905
8672.01 0.0240464
8677.01 0.0222997
8682.01 0.0207065
8687.01 0.0192329
8692.01 0.0178605
8697.01 0.016595
8702.01 0.0154404
8707.01 0.0143999
8712.01 0.0134537
8717.01 0.0125754
8722.01 0.0117545
8727.01 0.0109895
8732.01 0.0102766
8737.01 0.00962179
8742.01 0.00903355
8747.01 0.00848923
8752.01 0.00797598
8757.01 0.00749772
8762.01 0.00705495
8767.01 0.00664025
8772.01 0.0062659
8777.01 0.0059283
8782.01 0.00560548
8787.01 0.00529687
8792.01 0.00500653
8797.01 0.00473226
8802.01 0.00447813
8807.01 0.00425274
8812.01 0.00404375
8817.01 0.0038487
8822.01 0.00366044
8827.01 0.00340613
8832.01 0.00272006
8837.01 0.00195689
8842.01 0.0012389
8847.01 0.000556949
8852.01 5.03731e-06
8857.01 0
