@MEASUREMENT_RADIUS 6 cm
# lambda : Angstroms 
# tr : transmission ([0,1]) 
# end
6225 0
6230 6.91713e-06
6235 3.66198e-05
6240 5.73543e-05
6245 9.55896e-05
6250 9.71118e-05
6255 8.90254e-05
6260 9.80803e-05
6265 0.000100128
6270 0.000108027
6275 0.000110308
6280 8.5261e-05
6285 8.03897e-05
6290 6.77132e-05
6295 0.000102625
6300 0.000109858
6305 0.000107115
6310 8.84629e-05
6315 7.92294e-05
6320 9.90881e-05
6325 8.79868e-05
6330 8.524e-05
6335 8.40176e-05
6340 0.00010742
6345 0.000167724
6350 0.000180801
6355 0.000158441
6360 0.000123226
6365 0.000104062
6370 0.000114666
6375 0.00012696
6380 0.000115955
6385 8.70073e-05
6390 9.41949e-05
6395 9.08756e-05
6400 0.00011275
6405 0.000127556
6410 0.000137718
6415 0.00016592
6420 0.000152955
6425 0.000124265
6430 9.32198e-05
6435 0.000117951
6440 0.000133746
6445 0.000160735
6450 0.000162884
6455 0.000176009
6460 0.000190212
6465 0.000208436
6470 0.000199556
6475 0.000213286
6480 0.00023294
6485 0.000270291
6490 0.000277942
6495 0.000313039
6500 0.000346339
6505 0.000380113
6510 0.000411802
6515 0.000451155
6520 0.000474548
6525 0.000490677
6530 0.000493114
6535 0.000554265
6540 0.000620866
6545 0.000713492
6550 0.000781428
6555 0.000852373
6560 0.000917293
6565 0.00102528
6570 0.00113007
6575 0.00125595
6580 0.00137279
6585 0.00147941
6590 0.00157248
6595 0.00171502
6600 0.00188457
6605 0.00206903
6610 0.00227787
6615 0.00249124
6620 0.00273357
6625 0.00303234
6630 0.00335827
6635 0.00373897
6640 0.00417296
6645 0.00465431
6650 0.00524125
6655 0.00589554
6660 0.00667853
6665 0.00757366
6670 0.00862017
6675 0.00981605
6680 0.0112157
6685 0.0128764
6690 0.0147992
6695 0.0170284
6700 0.0195425
6705 0.0223976
6710 0.0256611
6715 0.0293387
6720 0.0334496
6725 0.0380237
6730 0.043108
6735 0.0487408
6740 0.0550259
6745 0.0619459
6750 0.0696209
6755 0.0782202
6760 0.0878719
6765 0.0987984
6770 0.111092
6775 0.125096
6780 0.141032
6785 0.15938
6790 0.180507
6795 0.204651
6800 0.232172
6805 0.263236
6810 0.298071
6815 0.336743
6820 0.379148
6825 0.42478
6830 0.472717
6835 0.521963
6840 0.571229
6845 0.619122
6850 0.6647
6855 0.706575
6860 0.743951
6865 0.77662
6870 0.804231
6875 0.827254
6880 0.846252
6885 0.861718
6890 0.874465
6895 0.884733
6900 0.893218
6905 0.900048
6910 0.905925
6915 0.910837
6920 0.914967
6925 0.918644
6930 0.921533
6935 0.924253
6940 0.926427
6945 0.92829
6950 0.929837
6955 0.931155
6960 0.932259
6965 0.933379
6970 0.934382
6975 0.935368
6980 0.936469
6985 0.937393
6990 0.938601
6995 0.939707
7000 0.940994
7005 0.942215
7010 0.943506
7015 0.944653
7020 0.945825
7025 0.946999
7030 0.947941
7035 0.948966
7040 0.949557
7045 0.950055
7050 0.950175
7055 0.950203
7060 0.949937
7065 0.949586
7070 0.949086
7075 0.948492
7080 0.947895
7085 0.947194
7090 0.946664
7095 0.946042
7100 0.945654
7105 0.945208
7110 0.944932
7115 0.944642
7120 0.944711
7125 0.945034
7130 0.945469
7135 0.946163
7140 0.946563
7145 0.94715
7150 0.947562
7155 0.948064
7160 0.948483
7165 0.948923
7170 0.949197
7175 0.949442
7180 0.949605
7185 0.949475
7190 0.949405
7195 0.948784
7200 0.948401
7205 0.947752
7210 0.947031
7215 0.946224
7220 0.945291
7225 0.94411
7230 0.94315
7235 0.942271
7240 0.941222
7245 0.940655
7250 0.939819
7255 0.939422
7260 0.93895
7265 0.938593
7270 0.938215
7275 0.938042
7280 0.937876
7285 0.937835
7290 0.938069
7295 0.937887
7300 0.938108
7305 0.938128
7310 0.938286
7315 0.938401
7320 0.938717
7325 0.938849
7330 0.939014
7335 0.939206
7340 0.939111
7345 0.939293
7350 0.939216
7355 0.939501
7360 0.939594
7365 0.939939
7370 0.940141
7375 0.940392
7380 0.940548
7385 0.940899
7390 0.941284
7395 0.941443
7400 0.942052
7405 0.94207
7410 0.942549
7415 0.942728
7420 0.942906
7425 0.942947
7430 0.942888
7435 0.942778
7440 0.942377
7445 0.941976
7450 0.940925
7455 0.940104
7460 0.938872
7465 0.937664
7470 0.936312
7475 0.934912
7480 0.933262
7485 0.931759
7490 0.930367
7495 0.928835
7500 0.927758
7505 0.926334
7510 0.925412
7515 0.924313
7520 0.923609
7525 0.922894
7530 0.922469
7535 0.922197
7540 0.922068
7545 0.922373
7550 0.922404
7555 0.923071
7560 0.92347
7565 0.924351
7570 0.925215
7575 0.926283
7580 0.927317
7585 0.928367
7590 0.929412
7595 0.930273
7600 0.931429
7605 0.932234
7610 0.93335
7615 0.934105
7620 0.934923
7625 0.935394
7630 0.935871
7635 0.936111
7640 0.936309
7645 0.936546
7650 0.936482
7655 0.936615
7660 0.936145
7665 0.935992
7670 0.935481
7675 0.935217
7680 0.934851
7685 0.934386
7690 0.933817
7695 0.932886
7700 0.93219
7705 0.931067
7710 0.930374
7715 0.92923
7720 0.928311
7725 0.927195
7730 0.926079
7735 0.92492
7740 0.923529
7745 0.922106
7750 0.920505
7755 0.919103
7760 0.917468
7765 0.916232
7770 0.914568
7775 0.913163
7780 0.911607
7785 0.910163
7790 0.90885
7795 0.907563
7800 0.906699
7805 0.905718
7810 0.905266
7815 0.904521
7820 0.904289
7825 0.903958
7830 0.903991
7835 0.904282
7840 0.904476
7845 0.905067
7850 0.905572
7855 0.906494
7860 0.907435
7865 0.908734
7870 0.909644
7875 0.910959
7880 0.912017
7885 0.913314
7890 0.914724
7895 0.915956
7900 0.917284
7905 0.918293
7910 0.919423
7915 0.920079
7920 0.921176
7925 0.921495
7930 0.922113
7935 0.922378
7940 0.922391
7945 0.922584
7950 0.922412
7955 0.922419
7960 0.921972
7965 0.921834
7970 0.921244
7975 0.921027
7980 0.920521
7985 0.92009
7990 0.919681
7995 0.91905
8000 0.918542
8005 0.917765
8010 0.917295
8015 0.916556
8020 0.916251
8025 0.915735
8030 0.915553
8035 0.915102
8040 0.914762
8045 0.914414
8050 0.913806
8055 0.913527
8060 0.91308
8065 0.912903
8070 0.912486
8075 0.912482
8080 0.911878
8085 0.911546
8090 0.911035
8095 0.910387
8100 0.909968
8105 0.909283
8110 0.908918
8115 0.908166
8120 0.907789
8125 0.906963
8130 0.906424
8135 0.905687
8140 0.905099
8145 0.904486
8150 0.903773
8155 0.903449
8160 0.902768
8165 0.902423
8170 0.901979
8175 0.901858
8180 0.901393
8185 0.901366
8190 0.901095
8195 0.900933
8200 0.900911
8205 0.900683
8210 0.900839
8215 0.900559
8220 0.900505
8225 0.899962
8230 0.899733
8235 0.898971
8240 0.89827
8245 0.897306
8250 0.895843
8255 0.894354
8260 0.892214
8265 0.89009
8270 0.887415
8275 0.884893
8280 0.881795
8285 0.878797
8290 0.875517
8295 0.872368
8300 0.869241
8305 0.866102
8310 0.863466
8315 0.860846
8320 0.858777
8325 0.85699
8330 0.856064
8335 0.855436
8340 0.855657
8345 0.856206
8350 0.857179
8355 0.858378
8360 0.858821
8365 0.85875
8370 0.856805
8375 0.852638
8380 0.844901
8385 0.83312
8390 0.815732
8395 0.792446
8400 0.762606
8405 0.726075
8410 0.683557
8415 0.635482
8420 0.583837
8425 0.529743
8430 0.475509
8435 0.422378
8440 0.372106
8445 0.325475
8450 0.283107
8455 0.245202
8460 0.211747
8465 0.182619
8470 0.157249
8475 0.135453
8480 0.116674
8485 0.10061
8490 0.0868389
8495 0.0751105
8500 0.0651117
8505 0.0565584
8510 0.0492713
8515 0.0430097
8520 0.0376382
8525 0.0330089
8530 0.0290006
8535 0.0255191
8540 0.0225187
8545 0.0198828
8550 0.0176033
8555 0.0156277
8560 0.0138847
8565 0.0123451
8570 0.010995
8575 0.00978541
8580 0.00871845
8585 0.00780125
8590 0.00698621
8595 0.00625967
8600 0.00563593
8605 0.00507161
8610 0.00456977
8615 0.00411596
8620 0.00370895
8625 0.00336384
8630 0.0030315
8635 0.00274788
8640 0.00249775
8645 0.00225604
8650 0.00203874
8655 0.00185343
8660 0.00168556
8665 0.00154511
8670 0.00139841
8675 0.00129679
8680 0.00119777
8685 0.0010848
8690 0.000995345
8695 0.000924527
8700 0.000823699
8705 0.000754322
8710 0.000715912
8715 0.000660899
8720 0.000619377
8725 0.000498906
8730 0.000358833
8735 0.000223969
8740 9.95855e-05
8745 0
