@MEASUREMENT_RADIUS 2.3 cm
# lambda : Angstroms 
# tr : transmission ([0,1]) 
# end
7945 0
7950 9.43362e-05
7955 0.0007635
7960 0.00147108
7965 0.00233072
7970 0.00329838
7975 0.00417356
7980 0.00460173
7985 0.00504354
7990 0.00539857
7995 0.00573272
8000 0.00609702
8005 0.00649368
8010 0.00692518
8015 0.00739168
8020 0.00788972
8025 0.00842087
8030 0.00900504
8035 0.00964299
8040 0.0103372
8045 0.0110902
8050 0.0119005
8055 0.0127729
8060 0.0137377
8065 0.014801
8070 0.0159723
8075 0.0172516
8080 0.0186297
8085 0.0201135
8090 0.021733
8095 0.0235166
8100 0.0254828
8105 0.0276443
8110 0.0300086
8115 0.0325737
8120 0.0353562
8125 0.0384297
8130 0.0418504
8135 0.0456268
8140 0.0497471
8145 0.0542322
8150 0.0590988
8155 0.0644572
8160 0.0704371
8165 0.0770736
8170 0.0843333
8175 0.0922436
8180 0.100803
8185 0.110133
8190 0.120456
8195 0.131818
8200 0.144194
8205 0.157602
8210 0.17208
8215 0.187545
8220 0.204338
8225 0.222589
8230 0.242268
8235 0.263221
8240 0.285337
8245 0.308554
8250 0.333026
8255 0.358978
8260 0.386271
8265 0.414482
8270 0.443294
8275 0.472463
8280 0.501994
8285 0.53176
8290 0.56177
8295 0.591643
8300 0.620946
8305 0.649265
8310 0.676468
8315 0.702725
8320 0.727895
8325 0.751776
8330 0.77409
8335 0.794488
8340 0.812792
8345 0.829254
8350 0.844122
8355 0.857295
8360 0.868813
8365 0.878731
8370 0.887055
8375 0.893861
8380 0.899374
8385 0.903796
8390 0.907211
8395 0.909723
8400 0.911457
8405 0.912494
8410 0.913012
8415 0.913136
8420 0.912973
8425 0.912582
8430 0.91206
8435 0.911471
8440 0.910866
8445 0.910309
8450 0.909815
8455 0.909415
8460 0.909127
8465 0.908995
8470 0.909
8475 0.909162
8480 0.909499
8485 0.909979
8490 0.910608
8495 0.911365
8500 0.912249
8505 0.913259
8510 0.914369
8515 0.915554
8520 0.916826
8525 0.918146
8530 0.919483
8535 0.920851
8540 0.922251
8545 0.923623
8550 0.924964
8555 0.926264
8560 0.927523
8565 0.928724
8570 0.929862
8575 0.930932
8580 0.931914
8585 0.932785
8590 0.933549
8595 0.934195
8600 0.934728
8605 0.935161
8610 0.935501
8615 0.935718
8620 0.935819
8625 0.935803
8630 0.935673
8635 0.935417
8640 0.935052
8645 0.934578
8650 0.934023
8655 0.933371
8660 0.93263
8665 0.931806
8670 0.930891
8675 0.929909
8680 0.92887
8685 0.927794
8690 0.926656
8695 0.925487
8700 0.924266
8705 0.923023
8710 0.921754
8715 0.920496
8720 0.919226
8725 0.917949
8730 0.916679
8735 0.915429
8740 0.914181
8745 0.91295
8750 0.911767
8755 0.91061
8760 0.909476
8765 0.908359
8770 0.907307
8775 0.90631
8780 0.905368
8785 0.904447
8790 0.903603
8795 0.902801
8800 0.902058
8805 0.901354
8810 0.900737
8815 0.900178
8820 0.899683
8825 0.899224
8830 0.898839
8835 0.89852
8840 0.898259
8845 0.89805
8850 0.897899
8855 0.897807
8860 0.897756
8865 0.897749
8870 0.897798
8875 0.897905
8880 0.898064
8885 0.898274
8890 0.898528
8895 0.898826
8900 0.899144
8905 0.899492
8910 0.899872
8915 0.900291
8920 0.900728
8925 0.901187
8930 0.901671
8935 0.902168
8940 0.902651
8945 0.903157
8950 0.90367
8955 0.904196
8960 0.904709
8965 0.905241
8970 0.905754
8975 0.906249
8980 0.906735
8985 0.907209
8990 0.907649
8995 0.908062
9000 0.908457
9005 0.908824
9010 0.909172
9015 0.909483
9020 0.90976
9025 0.910008
9030 0.910223
9035 0.910394
9040 0.910531
9045 0.910638
9050 0.910711
9055 0.910743
9060 0.910728
9065 0.910669
9070 0.910584
9075 0.910455
9080 0.910263
9085 0.910045
9090 0.909795
9095 0.909504
9100 0.909154
9105 0.908786
9110 0.908384
9115 0.907933
9120 0.907444
9125 0.90692
9130 0.906371
9135 0.905788
9140 0.905178
9145 0.904541
9150 0.90388
9155 0.903184
9160 0.902469
9165 0.901729
9170 0.900973
9175 0.900204
9180 0.899435
9185 0.898672
9190 0.897879
9195 0.897089
9200 0.896276
9205 0.895465
9210 0.894647
9215 0.893829
9220 0.893027
9225 0.892229
9230 0.891438
9235 0.890639
9240 0.889844
9245 0.889059
9250 0.888291
9255 0.887541
9260 0.886799
9265 0.88608
9270 0.88539
9275 0.884716
9280 0.884062
9285 0.88344
9290 0.882849
9295 0.882281
9300 0.881732
9305 0.881219
9310 0.880737
9315 0.880275
9320 0.879849
9325 0.879458
9330 0.879099
9335 0.878776
9340 0.878476
9345 0.878237
9350 0.878021
9355 0.877836
9360 0.877691
9365 0.877579
9370 0.87752
9375 0.877481
9380 0.877484
9385 0.877523
9390 0.8776
9395 0.877725
9400 0.877884
9405 0.878077
9410 0.878317
9415 0.878598
9420 0.878912
9425 0.87925
9430 0.879618
9435 0.880017
9440 0.88044
9445 0.880902
9450 0.8814
9455 0.88194
9460 0.882511
9465 0.883109
9470 0.88373
9475 0.884371
9480 0.885035
9485 0.885727
9490 0.886444
9495 0.887186
9500 0.887935
9505 0.888706
9510 0.889494
9515 0.890297
9520 0.891113
9525 0.891945
9530 0.892795
9535 0.893646
9540 0.894498
9545 0.895354
9550 0.896226
9555 0.897104
9560 0.897986
9565 0.898874
9570 0.899772
9575 0.900671
9580 0.901572
9585 0.90247
9590 0.903374
9595 0.904263
9600 0.905135
9605 0.906018
9610 0.906893
9615 0.907762
9620 0.908613
9625 0.909456
9630 0.910294
9635 0.911101
9640 0.911891
9645 0.91267
9650 0.913423
9655 0.914162
9660 0.91488
9665 0.915579
9670 0.916259
9675 0.916922
9680 0.917563
9685 0.918184
9690 0.918779
9695 0.91935
9700 0.91989
9705 0.920405
9710 0.920916
9715 0.921392
9720 0.921836
9725 0.922254
9730 0.922649
9735 0.923013
9740 0.923336
9745 0.923636
9750 0.923911
9755 0.924158
9760 0.924365
9765 0.924547
9770 0.924707
9775 0.924846
9780 0.92496
9785 0.925025
9790 0.925068
9795 0.925082
9800 0.925063
9805 0.92502
9810 0.924944
9815 0.924863
9820 0.924755
9825 0.924615
9830 0.924449
9835 0.924254
9840 0.924039
9845 0.923803
9850 0.923545
9855 0.923263
9860 0.922965
9865 0.922648
9870 0.922307
9875 0.921943
9880 0.921571
9885 0.921195
9890 0.920797
9895 0.920387
9900 0.919971
9905 0.919547
9910 0.919103
9915 0.91865
9920 0.918194
9925 0.917729
9930 0.917261
9935 0.916785
9940 0.916311
9945 0.915833
9950 0.915347
9955 0.914859
9960 0.914355
9965 0.913861
9970 0.913368
9975 0.912871
9980 0.912384
9985 0.911899
9990 0.911424
9995 0.91095
10000 0.910478
10005 0.910014
10010 0.909558
10015 0.909108
10020 0.90867
10025 0.90824
10030 0.907818
10035 0.907418
10040 0.907022
10045 0.906625
10050 0.906248
10055 0.905886
10060 0.905532
10065 0.905187
10070 0.90485
10075 0.904538
10080 0.904239
10085 0.903954
10090 0.903686
10095 0.903429
10100 0.903199
10105 0.902984
10110 0.90279
10115 0.902607
10120 0.902438
10125 0.902291
10130 0.902151
10135 0.902027
10140 0.901922
10145 0.901847
10150 0.901791
10155 0.901753
10160 0.901729
10165 0.901723
10170 0.901735
10175 0.901759
10180 0.901799
10185 0.901856
10190 0.901934
10195 0.902045
10200 0.902175
10205 0.902314
10210 0.902473
10215 0.902647
10220 0.902828
10225 0.903029
10230 0.903255
10235 0.90351
10240 0.903787
10245 0.904078
10250 0.904389
10255 0.904711
10260 0.905035
10265 0.905377
10270 0.905731
10275 0.906086
10280 0.906454
10285 0.906843
10290 0.907255
10295 0.907672
10300 0.908093
10305 0.908538
10310 0.909006
10315 0.909479
10320 0.909947
10325 0.910425
10330 0.910924
10335 0.911424
10340 0.911936
10345 0.912455
10350 0.912972
10355 0.913507
10360 0.914042
10365 0.9146
10370 0.915156
10375 0.915706
10380 0.916275
10385 0.916846
10390 0.917415
10395 0.917982
10400 0.918542
10405 0.919119
10410 0.919685
10415 0.920247
10420 0.920819
10425 0.9214
10430 0.921975
10435 0.922543
10440 0.923104
10445 0.923678
10450 0.92426
10455 0.924827
10460 0.925379
10465 0.925937
10470 0.926493
10475 0.927047
10480 0.927591
10485 0.928119
10490 0.928648
10495 0.929181
10500 0.929694
10505 0.930205
10510 0.930703
10515 0.931208
10520 0.931712
10525 0.932198
10530 0.932677
10535 0.933147
10540 0.933602
10545 0.93405
10550 0.934475
10555 0.934902
10560 0.935313
10565 0.935721
10570 0.936126
10575 0.93652
10580 0.936895
10585 0.93727
10590 0.937625
10595 0.937971
10600 0.938295
10605 0.938604
10610 0.938908
10615 0.9392
10620 0.939476
10625 0.93974
10630 0.939992
10635 0.940248
10640 0.940503
10645 0.940733
10650 0.940942
10655 0.94114
10660 0.941328
10665 0.941501
10670 0.941659
10675 0.941805
10680 0.941947
10685 0.942067
10690 0.942167
10695 0.942266
10700 0.942345
10705 0.942414
10710 0.942465
10715 0.942508
10720 0.942546
10725 0.942577
10730 0.942592
10735 0.9426
10740 0.942593
10745 0.942577
10750 0.942546
10755 0.942515
10760 0.942463
10765 0.942399
10770 0.942335
10775 0.94226
10780 0.942183
10785 0.942095
10790 0.941997
10795 0.941903
10800 0.941796
10805 0.941669
10810 0.941539
10815 0.941399
10820 0.941252
10825 0.9411
10830 0.940936
10835 0.940772
10840 0.940608
10845 0.940443
10850 0.940275
10855 0.940092
10860 0.939899
10865 0.939708
10870 0.939514
10875 0.939312
10880 0.939101
10885 0.938891
10890 0.938689
10895 0.938482
10900 0.938272
10905 0.938063
10910 0.937846
10915 0.937625
10920 0.937414
10925 0.937199
10930 0.936989
10935 0.936773
10940 0.936563
10945 0.936355
10950 0.936157
10955 0.935947
10960 0.868776
10965 0.729974
10970 0.591583
10975 0.45309
10980 0.315013
10985 0.177467
10990 0.0408417
10995 0
