@MEASUREMENT_RADIUS 4.7 cm
# lambda : Angstroms 
# tr : transmission ([0,1]) 
# end
7915 0
7920 0.000109004
7925 0.000754347
7930 0.0014675
7935 0.0022283
7940 0.00303601
7945 0.00374777
7950 0.00400236
7955 0.00427177
7960 0.00457237
7965 0.00504303
7970 0.0056397
7975 0.00627447
7980 0.00695102
7985 0.00765518
7990 0.00824006
7995 0.00879432
8000 0.0094054
8005 0.0100808
8010 0.0108158
8015 0.011611
8020 0.0124636
8025 0.0133775
8030 0.0143785
8035 0.0154859
8040 0.016694
8045 0.0180099
8050 0.0194371
8055 0.0209854
8060 0.0226935
8065 0.0245898
8070 0.0266898
8075 0.0289985
8080 0.0314952
8085 0.0341881
8090 0.0371434
8095 0.0404225
8100 0.0440435
8105 0.0480418
8110 0.0524174
8115 0.0571687
8120 0.0623211
8125 0.0680407
8130 0.0743949
8135 0.0814028
8140 0.0890488
8145 0.0973828
8150 0.106419
8155 0.116327
8160 0.127272
8165 0.139327
8170 0.15244
8175 0.166569
8180 0.181645
8185 0.197835
8190 0.215464
8195 0.234532
8200 0.254889
8205 0.276443
8210 0.29916
8215 0.322837
8220 0.34781
8225 0.374143
8230 0.401642
8235 0.429886
8240 0.458616
8245 0.487549
8250 0.516768
8255 0.546403
8260 0.576169
8265 0.605633
8270 0.634401
8275 0.662161
8280 0.688785
8285 0.714261
8290 0.738619
8295 0.761603
8300 0.782899
8305 0.80223
8310 0.819694
8315 0.835508
8320 0.849675
8325 0.862216
8330 0.873163
8335 0.882464
8340 0.890085
8345 0.896297
8350 0.901346
8355 0.905338
8360 0.908419
8365 0.910657
8370 0.912174
8375 0.913087
8380 0.913535
8385 0.913611
8390 0.913424
8395 0.913053
8400 0.912564
8405 0.912009
8410 0.911462
8415 0.910952
8420 0.910505
8425 0.910153
8430 0.909921
8435 0.90984
8440 0.909911
8445 0.910146
8450 0.910528
8455 0.911054
8460 0.911691
8465 0.91246
8470 0.913348
8475 0.914346
8480 0.91547
8485 0.916681
8490 0.917955
8495 0.919272
8500 0.920609
8505 0.921975
8510 0.923349
8515 0.924715
8520 0.926045
8525 0.927335
8530 0.928538
8535 0.929684
8540 0.930773
8545 0.931767
8550 0.932672
8555 0.933493
8560 0.934206
8565 0.93479
8570 0.935284
8575 0.935674
8580 0.935942
8585 0.936084
8590 0.936112
8595 0.936016
8600 0.935798
8605 0.935481
8610 0.935067
8615 0.934563
8620 0.933977
8625 0.933295
8630 0.932504
8635 0.931631
8640 0.930685
8645 0.929653
8650 0.928576
8655 0.927477
8660 0.926314
8665 0.925109
8670 0.923878
8675 0.922629
8680 0.921351
8685 0.920088
8690 0.918817
8695 0.917539
8700 0.916254
8705 0.91499
8710 0.913753
8715 0.912568
8720 0.911412
8725 0.910275
8730 0.909182
8735 0.908138
8740 0.907121
8745 0.906144
8750 0.905249
8755 0.9044
8760 0.903583
8765 0.902816
8770 0.902111
8775 0.90147
8780 0.90089
8785 0.900366
8790 0.899919
8795 0.899526
8800 0.899191
8805 0.898909
8810 0.898705
8815 0.898545
8820 0.89845
8825 0.898391
8830 0.898395
8835 0.898449
8840 0.898547
8845 0.898679
8850 0.89887
8855 0.899113
8860 0.899377
8865 0.899689
8870 0.900017
8875 0.900378
8880 0.90075
8885 0.901161
8890 0.901577
8895 0.902032
8900 0.902492
8905 0.902965
8910 0.903449
8915 0.903946
8920 0.904445
8925 0.90495
8930 0.905448
8935 0.90594
8940 0.906411
8945 0.906858
8950 0.90729
8955 0.90771
8960 0.908103
8965 0.908475
8970 0.908824
8975 0.909142
8980 0.909431
8985 0.909693
8990 0.909903
8995 0.91008
9000 0.910227
9005 0.910336
9010 0.910408
9015 0.91044
9020 0.910435
9025 0.910387
9030 0.910293
9035 0.910151
9040 0.909965
9045 0.909748
9050 0.909486
9055 0.909191
9060 0.908862
9065 0.908497
9070 0.908094
9075 0.907648
9080 0.907167
9085 0.906636
9090 0.90608
9095 0.905494
9100 0.904882
9105 0.904238
9110 0.903573
9115 0.902878
9120 0.902161
9125 0.901426
9130 0.900667
9135 0.899892
9140 0.899096
9145 0.898293
9150 0.897472
9155 0.896627
9160 0.895787
9165 0.894944
9170 0.894101
9175 0.893258
9180 0.892433
9185 0.891639
9190 0.890827
9195 0.890026
9200 0.889216
9205 0.888421
9210 0.887624
9215 0.886838
9220 0.886085
9225 0.885354
9230 0.884646
9235 0.883951
9240 0.88328
9245 0.882626
9250 0.881999
9255 0.881404
9260 0.880837
9265 0.880287
9270 0.879779
9275 0.879293
9280 0.878847
9285 0.878432
9290 0.87805
9295 0.877707
9300 0.877403
9305 0.87714
9310 0.876904
9315 0.876696
9320 0.876536
9325 0.876411
9330 0.876319
9335 0.876257
9340 0.876228
9345 0.876271
9350 0.876333
9355 0.876434
9360 0.876582
9365 0.876778
9370 0.877005
9375 0.877245
9380 0.877536
9385 0.877875
9390 0.878235
9395 0.878628
9400 0.879063
9405 0.879533
9410 0.880033
9415 0.88056
9420 0.881126
9425 0.881725
9430 0.882353
9435 0.883001
9440 0.883671
9445 0.884356
9450 0.885058
9455 0.8858
9460 0.886557
9465 0.88734
9470 0.888129
9475 0.888949
9480 0.889793
9485 0.890635
9490 0.891495
9495 0.892368
9500 0.893261
9505 0.894155
9510 0.895058
9515 0.895966
9520 0.896885
9525 0.897808
9530 0.898729
9535 0.899638
9540 0.900536
9545 0.901443
9550 0.902357
9555 0.903257
9560 0.904149
9565 0.905045
9570 0.905936
9575 0.906813
9580 0.907679
9585 0.908542
9590 0.909388
9595 0.910217
9600 0.91103
9605 0.911837
9610 0.912618
9615 0.913386
9620 0.914144
9625 0.914883
9630 0.915602
9635 0.916285
9640 0.916951
9645 0.917595
9650 0.918205
9655 0.918789
9660 0.919339
9665 0.919867
9670 0.920365
9675 0.920839
9680 0.921293
9685 0.921725
9690 0.922126
9695 0.9225
9700 0.92284
9705 0.923146
9710 0.923428
9715 0.923689
9720 0.923923
9725 0.924127
9730 0.924299
9735 0.924444
9740 0.924557
9745 0.924631
9750 0.924681
9755 0.924701
9760 0.924689
9765 0.924653
9770 0.924591
9775 0.924507
9780 0.924395
9785 0.924254
9790 0.924098
9795 0.923916
9800 0.923703
9805 0.923473
9810 0.92322
9815 0.922955
9820 0.922651
9825 0.922331
9830 0.921998
9835 0.921645
9840 0.921268
9845 0.920869
9850 0.920476
9855 0.920058
9860 0.91962
9865 0.919172
9870 0.918716
9875 0.918254
9880 0.91778
9885 0.917307
9890 0.916822
9895 0.916328
9900 0.915829
9905 0.915325
9910 0.914823
9915 0.914318
9920 0.91381
9925 0.913303
9930 0.912804
9935 0.912304
9940 0.911803
9945 0.911304
9950 0.910821
9955 0.910336
9960 0.909849
9965 0.909376
9970 0.908914
9975 0.908451
9980 0.907993
9985 0.907553
9990 0.907121
9995 0.906693
10000 0.906273
10005 0.905866
10010 0.905481
10015 0.905109
10020 0.904749
10025 0.904405
10030 0.904074
10035 0.903768
10040 0.903471
10045 0.903173
10050 0.902896
10055 0.902645
10060 0.902414
10065 0.902189
10070 0.901978
10075 0.901786
10080 0.901617
10085 0.901459
10090 0.901315
10095 0.901191
10100 0.901092
10105 0.901016
10110 0.900957
10115 0.900916
10120 0.900891
10125 0.900887
10130 0.900894
10135 0.900913
10140 0.900951
10145 0.901019
10150 0.901109
10155 0.901215
10160 0.901336
10165 0.901481
10170 0.901651
10175 0.901832
10180 0.902025
10185 0.902232
10190 0.902465
10195 0.902716
10200 0.902983
10205 0.903266
10210 0.903567
10215 0.903878
10220 0.904196
10225 0.904533
10230 0.904898
10235 0.905295
10240 0.905711
10245 0.906138
10250 0.906587
10255 0.907042
10260 0.907495
10265 0.907957
10270 0.908418
10275 0.908888
10280 0.909367
10285 0.909864
10290 0.910375
10295 0.91089
10300 0.911405
10305 0.911933
10310 0.912476
10315 0.913022
10320 0.913572
10325 0.914122
10330 0.914686
10335 0.915265
10340 0.915847
10345 0.916427
10350 0.916997
10355 0.91758
10360 0.918167
10365 0.918766
10370 0.919352
10375 0.91994
10380 0.920546
10385 0.921149
10390 0.921754
10395 0.92235
10400 0.922934
10405 0.923524
10410 0.924102
10415 0.924675
10420 0.925248
10425 0.925822
10430 0.926381
10435 0.926935
10440 0.92749
10445 0.928048
10450 0.928595
10455 0.929129
10460 0.929663
10465 0.930198
10470 0.930721
10475 0.931229
10480 0.931733
10485 0.932239
10490 0.932721
10495 0.933187
10500 0.933645
10505 0.934104
10510 0.934551
10515 0.934992
10520 0.935421
10525 0.935842
10530 0.936258
10535 0.936652
10540 0.937035
10545 0.937402
10550 0.937748
10555 0.938093
10560 0.938427
10565 0.938749
10570 0.939062
10575 0.939364
10580 0.939648
10585 0.939926
10590 0.940185
10595 0.940431
10600 0.940663
10605 0.940888
10610 0.941098
10615 0.941295
10620 0.941481
10625 0.941651
10630 0.941811
10635 0.94196
10640 0.942095
10645 0.942224
10650 0.942336
10655 0.942433
10660 0.942526
10665 0.942603
10670 0.942662
10675 0.942709
10680 0.942744
10685 0.942768
10690 0.942775
10695 0.942771
10700 0.942754
10705 0.942735
10710 0.942713
10715 0.942675
10720 0.942623
10725 0.942566
10730 0.942499
10735 0.942423
10740 0.942331
10745 0.942224
10750 0.942109
10755 0.941992
10760 0.941863
10765 0.941727
10770 0.941587
10775 0.941437
10780 0.94129
10785 0.941137
10790 0.94098
10795 0.940818
10800 0.940646
10805 0.940461
10810 0.940278
10815 0.940089
10820 0.939891
10825 0.939684
10830 0.939479
10835 0.939267
10840 0.939058
10845 0.938848
10850 0.938638
10855 0.938428
10860 0.938201
10865 0.937969
10870 0.937745
10875 0.937514
10880 0.93728
10885 0.937046
10890 0.936823
10895 0.936613
10900 0.936398
10905 0.93618
10910 0.93596
10915 0.935723
10920 0.935492
10925 0.93526
10930 0.935036
10935 0.934814
10940 0.934601
10945 0.934392
10950 0.934197
10955 0.933986
10960 0.867333
10965 0.727428
10970 0.589071
10975 0.450741
10980 0.313838
10985 0.176707
10990 0.0412604
10995 0
