@MEASUREMENT_RADIUS 11.7 cm
# lambda : Angstroms 
# tr : transmission ([0,1]) 
# end
7870 0
7875 0.000191887
7880 0.000728458
7885 0.00142623
7890 0.00217248
7895 0.00295447
7900 0.0036386
7905 0.00389068
7910 0.00414881
7915 0.00443088
7920 0.00473566
7925 0.00506611
7930 0.00542494
7935 0.00581082
7940 0.00622848
7945 0.00667992
7950 0.00716414
7955 0.00768776
7960 0.00831648
7965 0.00920803
7970 0.0103506
7975 0.0115973
7980 0.0129329
7985 0.0143312
7990 0.0155483
7995 0.0167216
8000 0.0180135
8005 0.0194418
8010 0.0210096
8015 0.0227133
8020 0.0245562
8025 0.0265598
8030 0.0287656
8035 0.0312128
8040 0.0339086
8045 0.036864
8050 0.0400931
8055 0.0436301
8060 0.0475514
8065 0.0519352
8070 0.0568144
8075 0.0621887
8080 0.0680163
8085 0.0743177
8090 0.0812387
8095 0.0889437
8100 0.0974913
8105 0.106888
8110 0.117151
8115 0.128272
8120 0.140278
8125 0.153406
8130 0.167816
8135 0.183526
8140 0.200439
8145 0.218542
8150 0.237832
8155 0.258455
8160 0.280618
8165 0.304334
8170 0.329375
8175 0.35543
8180 0.38227
8185 0.409947
8190 0.438611
8195 0.468165
8200 0.49822
8205 0.528514
8210 0.558717
8215 0.588379
8220 0.617613
8225 0.646536
8230 0.674928
8235 0.702217
8240 0.728022
8245 0.752148
8250 0.774647
8255 0.795533
8260 0.814763
8265 0.832226
8270 0.847791
8275 0.861344
8280 0.872948
8285 0.882843
8290 0.891223
8295 0.898165
8300 0.903698
8305 0.907929
8310 0.911039
8315 0.913196
8320 0.914562
8325 0.915282
8330 0.915478
8335 0.915269
8340 0.914749
8345 0.914013
8350 0.913151
8355 0.912243
8360 0.91134
8365 0.910481
8370 0.909725
8375 0.909096
8380 0.908617
8385 0.908293
8390 0.908139
8395 0.908168
8400 0.908389
8405 0.9088
8410 0.909388
8415 0.91015
8420 0.911061
8425 0.912093
8430 0.913235
8435 0.914476
8440 0.915823
8445 0.917254
8450 0.918748
8455 0.920293
8460 0.921851
8465 0.923405
8470 0.924954
8475 0.926491
8480 0.928014
8485 0.929491
8490 0.930896
8495 0.932218
8500 0.933455
8505 0.934597
8510 0.935642
8515 0.936584
8520 0.93741
8525 0.938095
8530 0.938625
8535 0.939026
8540 0.939304
8545 0.939447
8550 0.939461
8555 0.93937
8560 0.939159
8565 0.938823
8570 0.938374
8575 0.937825
8580 0.937179
8585 0.936434
8590 0.935607
8595 0.934692
8600 0.933697
8605 0.932619
8610 0.93148
8615 0.930308
8620 0.929101
8625 0.927864
8630 0.926584
8635 0.925271
8640 0.923936
8645 0.922577
8650 0.92124
8655 0.919923
8660 0.918614
8665 0.917305
8670 0.916003
8675 0.914727
8680 0.913493
8685 0.912314
8690 0.911173
8695 0.910081
8700 0.909031
8705 0.908022
8710 0.907065
8715 0.906193
8720 0.905378
8725 0.904624
8730 0.903921
8735 0.903276
8740 0.902677
8745 0.902131
8750 0.901658
8755 0.901234
8760 0.900857
8765 0.900539
8770 0.900286
8775 0.900089
8780 0.899948
8785 0.899859
8790 0.899835
8795 0.899846
8800 0.899896
8805 0.899985
8810 0.900124
8815 0.900301
8820 0.900516
8825 0.900762
8830 0.901046
8835 0.901356
8840 0.901685
8845 0.902022
8850 0.902375
8855 0.902749
8860 0.903126
8865 0.903506
8870 0.903895
8875 0.904286
8880 0.904677
8885 0.905063
8890 0.905447
8895 0.905819
8900 0.906168
8905 0.906496
8910 0.906812
8915 0.907103
8920 0.907369
8925 0.907608
8930 0.907832
8935 0.908005
8940 0.908135
8945 0.908231
8950 0.908292
8955 0.908323
8960 0.908306
8965 0.908256
8970 0.90818
8975 0.908055
8980 0.907879
8985 0.907668
8990 0.90741
8995 0.907108
9000 0.906762
9005 0.906372
9010 0.905941
9015 0.905463
9020 0.90495
9025 0.904404
9030 0.903817
9035 0.903191
9040 0.902539
9045 0.901856
9050 0.901136
9055 0.90039
9060 0.899629
9065 0.898842
9070 0.898028
9075 0.897182
9080 0.896322
9085 0.895444
9090 0.894558
9095 0.893658
9100 0.892748
9105 0.891834
9110 0.890916
9115 0.889979
9120 0.889043
9125 0.888112
9130 0.887191
9135 0.886268
9140 0.885346
9145 0.884428
9150 0.883531
9155 0.88264
9160 0.881769
9165 0.880914
9170 0.880071
9175 0.879248
9180 0.87845
9185 0.877683
9190 0.876935
9195 0.876227
9200 0.875549
9205 0.874903
9210 0.874281
9215 0.873686
9220 0.873131
9225 0.872608
9230 0.872116
9235 0.871639
9240 0.871197
9245 0.870796
9250 0.87044
9255 0.870126
9260 0.869852
9265 0.86962
9270 0.869436
9275 0.869288
9280 0.869171
9285 0.869098
9290 0.869075
9295 0.869085
9300 0.869134
9305 0.869235
9310 0.869361
9315 0.869521
9320 0.869724
9325 0.869979
9330 0.87026
9335 0.870576
9340 0.870932
9345 0.871336
9350 0.871775
9355 0.872255
9360 0.872782
9365 0.873354
9370 0.873961
9375 0.874585
9380 0.875236
9385 0.875922
9390 0.876626
9395 0.877359
9400 0.878122
9405 0.878918
9410 0.87974
9415 0.880574
9420 0.881436
9425 0.882323
9430 0.88322
9435 0.884125
9440 0.885037
9445 0.885964
9450 0.886903
9455 0.887857
9460 0.888823
9465 0.889794
9470 0.890766
9475 0.891746
9480 0.892736
9485 0.893729
9490 0.894722
9495 0.895721
9500 0.896718
9505 0.897703
9510 0.898672
9515 0.899631
9520 0.900588
9525 0.901541
9530 0.902478
9535 0.903397
9540 0.904288
9545 0.905178
9550 0.906052
9555 0.906905
9560 0.907737
9565 0.908562
9570 0.909361
9575 0.91013
9580 0.91087
9585 0.911604
9590 0.912309
9595 0.912991
9600 0.913644
9605 0.914277
9610 0.914883
9615 0.91546
9620 0.916016
9625 0.916546
9630 0.917045
9635 0.917504
9640 0.917931
9645 0.918324
9650 0.918684
9655 0.919009
9660 0.919298
9665 0.919562
9670 0.919792
9675 0.919992
9680 0.920164
9685 0.920313
9690 0.920433
9695 0.92052
9700 0.92057
9705 0.920589
9710 0.920579
9715 0.920544
9720 0.920477
9725 0.920386
9730 0.920264
9735 0.920122
9740 0.919953
9745 0.919751
9750 0.919524
9755 0.919277
9760 0.919004
9765 0.918711
9770 0.918392
9775 0.918056
9780 0.917692
9785 0.917306
9790 0.916901
9795 0.916483
9800 0.916043
9805 0.915596
9810 0.915135
9815 0.914667
9820 0.91418
9825 0.913684
9830 0.913178
9835 0.912661
9840 0.912134
9845 0.9116
9850 0.911064
9855 0.910525
9860 0.909983
9865 0.909434
9870 0.908876
9875 0.908319
9880 0.907765
9885 0.907216
9890 0.90667
9895 0.906135
9900 0.905608
9905 0.90509
9910 0.904575
9915 0.904066
9920 0.903569
9925 0.903079
9930 0.90259
9935 0.90211
9940 0.901637
9945 0.901183
9950 0.900734
9955 0.900296
9960 0.899878
9965 0.899487
9970 0.899107
9975 0.898744
9980 0.898399
9985 0.898069
9990 0.897753
9995 0.89745
10000 0.897168
10005 0.896903
10010 0.896655
10015 0.896428
10020 0.896222
10025 0.896033
10030 0.895862
10035 0.895709
10040 0.895579
10045 0.895469
10050 0.895377
10055 0.895304
10060 0.895251
10065 0.895217
10070 0.895203
10075 0.895207
10080 0.895233
10085 0.895285
10090 0.895353
10095 0.89544
10100 0.895545
10105 0.895677
10110 0.895831
10115 0.896001
10120 0.896186
10125 0.896395
10130 0.896619
10135 0.896863
10140 0.897124
10145 0.897412
10150 0.897725
10155 0.898053
10160 0.898392
10165 0.898745
10170 0.899123
10175 0.899517
10180 0.899923
10185 0.900348
10190 0.900799
10195 0.90127
10200 0.901752
10205 0.902246
10210 0.902755
10215 0.903272
10220 0.903797
10225 0.904335
10230 0.904893
10235 0.90547
10240 0.906065
10245 0.906674
10250 0.907294
10255 0.907922
10260 0.908556
10265 0.909195
10270 0.909833
10275 0.910467
10280 0.911101
10285 0.911751
10290 0.912408
10295 0.913055
10300 0.9137
10305 0.914356
10310 0.915027
10315 0.915702
10320 0.916371
10325 0.917045
10330 0.917729
10335 0.918414
10340 0.919093
10345 0.919767
10350 0.920437
10355 0.921107
10360 0.921772
10365 0.922434
10370 0.923087
10375 0.923738
10380 0.924395
10385 0.925045
10390 0.925681
10395 0.926311
10400 0.926933
10405 0.927551
10410 0.928157
10415 0.928756
10420 0.929353
10425 0.929938
10430 0.930499
10435 0.931046
10440 0.931587
10445 0.932129
10450 0.932667
10455 0.93319
10460 0.933701
10465 0.934206
10470 0.934699
10475 0.93517
10480 0.935625
10485 0.936065
10490 0.936488
10495 0.936899
10500 0.937301
10505 0.937695
10510 0.938073
10515 0.938442
10520 0.9388
10525 0.93914
10530 0.939469
10535 0.939783
10540 0.940082
10545 0.94036
10550 0.940618
10555 0.940867
10560 0.941097
10565 0.941319
10570 0.941532
10575 0.941732
10580 0.941919
10585 0.942089
10590 0.942238
10595 0.942369
10600 0.942477
10605 0.942578
10610 0.942667
10615 0.942739
10620 0.942798
10625 0.942848
10630 0.942889
10635 0.942915
10640 0.942924
10645 0.942925
10650 0.942915
10655 0.942891
10660 0.942856
10665 0.942803
10670 0.94273
10675 0.942649
10680 0.942562
10685 0.942458
10690 0.942342
10695 0.942219
10700 0.942095
10705 0.941962
10710 0.941821
10715 0.941664
10720 0.941498
10725 0.94133
10730 0.94115
10735 0.940962
10740 0.940762
10745 0.940556
10750 0.94034
10755 0.940123
10760 0.939892
10765 0.939657
10770 0.939418
10775 0.939173
10780 0.93893
10785 0.938683
10790 0.938436
10795 0.938185
10800 0.937927
10805 0.937663
10810 0.937401
10815 0.937133
10820 0.936863
10825 0.936595
10830 0.93633
10835 0.936061
10840 0.935793
10845 0.935526
10850 0.935263
10855 0.935001
10860 0.934726
10865 0.934445
10870 0.934173
10875 0.933907
10880 0.933636
10885 0.933367
10890 0.9331
10895 0.932843
10900 0.932591
10905 0.932345
10910 0.9321
10915 0.931848
10920 0.931592
10925 0.931348
10930 0.931116
10935 0.930885
10940 0.930659
10945 0.930448
10950 0.930245
10955 0.913025
10960 0.845274
10965 0.724615
10970 0.587097
10975 0.449728
10980 0.312642
10985 0.176343
10990 0.0461283
10995 0
