@MEASUREMENT_RADIUS 16.3 cm
# lambda : Angstroms 
# tr : transmission ([0,1]) 
# end
7840 1.29669e-05
7845 0.000257343
7850 0.00074222
7855 0.00147158
7860 0.00224165
7865 0.00306325
7870 0.00375449
7875 0.00404322
7880 0.00431857
7885 0.00461411
7890 0.00493033
7895 0.00527
7900 0.00563827
7905 0.00603817
7910 0.00647163
7915 0.00694352
7920 0.00745814
7925 0.00801656
7930 0.00862391
7935 0.00928312
7940 0.00999869
7945 0.0107786
7950 0.0116259
7955 0.0125537
7960 0.013738
7965 0.0153141
7970 0.0173352
7975 0.0196031
7980 0.0220506
7985 0.0246149
7990 0.0269222
7995 0.0291629
8000 0.0316366
8005 0.0343883
8010 0.0374293
8015 0.0407563
8020 0.0443843
8025 0.0483598
8030 0.0527549
8035 0.0576413
8040 0.063061
8045 0.0690254
8050 0.075564
8055 0.0827441
8060 0.0907007
8065 0.0995966
8070 0.109497
8075 0.120397
8080 0.13226
8085 0.145074
8090 0.15901
8095 0.174267
8100 0.190928
8105 0.208978
8110 0.228391
8115 0.249047
8120 0.271002
8125 0.294477
8130 0.319616
8135 0.346288
8140 0.37409
8145 0.402728
8150 0.431993
8155 0.461932
8160 0.492661
8165 0.52407
8170 0.555757
8175 0.587149
8180 0.61772
8185 0.64722
8190 0.675828
8195 0.703597
8200 0.730249
8205 0.75546
8210 0.778866
8215 0.800158
8220 0.819305
8225 0.83651
8230 0.851855
8235 0.865277
8240 0.876738
8245 0.886243
8250 0.893936
8255 0.900042
8260 0.904766
8265 0.908231
8270 0.910553
8275 0.911873
8280 0.912361
8285 0.912203
8290 0.911542
8295 0.910518
8300 0.909251
8305 0.907842
8310 0.906372
8315 0.904922
8320 0.903548
8325 0.902291
8330 0.901184
8335 0.900278
8340 0.899614
8345 0.899182
8350 0.89898
8355 0.899016
8360 0.899285
8365 0.899776
8370 0.900474
8375 0.901382
8380 0.902496
8385 0.903786
8390 0.905238
8395 0.906826
8400 0.908527
8405 0.910327
8410 0.912215
8415 0.914188
8420 0.916211
8425 0.918234
8430 0.920241
8435 0.922211
8440 0.924143
8445 0.926029
8450 0.927855
8455 0.929613
8460 0.931253
8465 0.932772
8470 0.934163
8475 0.935426
8480 0.936576
8485 0.9376
8490 0.938475
8495 0.939191
8500 0.939744
8505 0.940128
8510 0.94036
8515 0.940441
8520 0.940368
8525 0.940145
8530 0.939776
8535 0.939263
8540 0.938615
8545 0.937838
8550 0.936955
8555 0.935992
8560 0.934934
8565 0.933797
8570 0.932589
8575 0.93131
8580 0.929967
8585 0.928573
8590 0.927157
8595 0.925708
8600 0.924232
8605 0.922735
8610 0.921228
8615 0.91973
8620 0.918245
8625 0.916795
8630 0.91537
8635 0.913966
8640 0.912584
8645 0.911231
8650 0.90993
8655 0.908692
8660 0.907514
8665 0.906392
8670 0.905328
8675 0.90432
8680 0.903372
8685 0.902501
8690 0.901708
8695 0.900983
8700 0.900334
8705 0.89975
8710 0.899238
8715 0.898806
8720 0.898442
8725 0.898155
8730 0.897933
8735 0.897783
8740 0.89769
8745 0.897647
8750 0.897678
8755 0.897761
8760 0.897887
8765 0.898067
8770 0.898298
8775 0.898574
8780 0.898887
8785 0.899237
8790 0.899624
8795 0.90004
8800 0.900481
8805 0.900943
8810 0.901431
8815 0.901934
8820 0.902449
8825 0.902972
8830 0.903506
8835 0.904043
8840 0.904575
8845 0.905096
8850 0.905604
8855 0.906098
8860 0.906568
8865 0.907019
8870 0.907448
8875 0.907845
8880 0.908217
8885 0.908557
8890 0.90886
8895 0.909122
8900 0.909334
8905 0.909497
8910 0.909613
8915 0.909687
8920 0.90971
8925 0.909687
8930 0.90962
8935 0.909497
8940 0.909311
8945 0.909065
8950 0.908758
8955 0.908403
8960 0.907988
8965 0.907527
8970 0.907025
8975 0.906472
8980 0.905866
8985 0.905202
8990 0.904479
8995 0.903713
9000 0.902903
9005 0.90205
9010 0.901149
9015 0.900203
9020 0.89922
9025 0.898208
9030 0.89717
9035 0.896103
9040 0.895011
9045 0.893895
9050 0.892755
9055 0.891594
9060 0.890417
9065 0.889233
9070 0.888044
9075 0.886836
9080 0.885614
9085 0.884388
9090 0.88317
9095 0.881958
9100 0.880758
9105 0.879569
9110 0.878384
9115 0.877202
9120 0.876027
9125 0.874872
9130 0.873741
9135 0.872638
9140 0.871556
9145 0.870498
9150 0.86947
9155 0.868475
9160 0.867509
9165 0.866584
9170 0.865693
9175 0.864832
9180 0.864012
9185 0.863232
9190 0.862497
9195 0.861814
9200 0.861179
9205 0.860584
9210 0.860027
9215 0.859509
9220 0.859046
9225 0.85862
9230 0.858239
9235 0.857902
9240 0.857616
9245 0.857376
9250 0.857183
9255 0.85704
9260 0.856953
9265 0.856918
9270 0.856935
9275 0.856995
9280 0.857099
9285 0.857254
9290 0.857459
9295 0.857712
9300 0.858018
9305 0.858377
9310 0.858778
9315 0.859216
9320 0.859692
9325 0.860215
9330 0.860784
9335 0.86139
9340 0.862039
9345 0.862737
9350 0.863467
9355 0.864235
9360 0.865042
9365 0.865891
9370 0.866777
9375 0.867691
9380 0.868635
9385 0.869613
9390 0.870614
9395 0.871639
9400 0.872694
9405 0.873767
9410 0.874855
9415 0.875952
9420 0.877068
9425 0.878204
9430 0.879354
9435 0.880507
9440 0.881666
9445 0.882828
9450 0.883991
9455 0.885163
9460 0.886342
9465 0.887525
9470 0.888703
9475 0.889878
9480 0.891047
9485 0.8922
9490 0.893346
9495 0.894485
9500 0.895607
9505 0.896712
9510 0.897805
9515 0.898881
9520 0.89994
9525 0.900982
9530 0.902004
9535 0.903
9540 0.903962
9545 0.904899
9550 0.905814
9555 0.906708
9560 0.907572
9565 0.908411
9570 0.909214
9575 0.909979
9580 0.910709
9585 0.911412
9590 0.912079
9595 0.912719
9600 0.913326
9605 0.913897
9610 0.914435
9615 0.914937
9620 0.915403
9625 0.915835
9630 0.916227
9635 0.916578
9640 0.916889
9645 0.917162
9650 0.917396
9655 0.917592
9660 0.917748
9665 0.917871
9670 0.917956
9675 0.918004
9680 0.918021
9685 0.918005
9690 0.91795
9695 0.917862
9700 0.917738
9705 0.917582
9710 0.917397
9715 0.917188
9720 0.916948
9725 0.916679
9730 0.916379
9735 0.916054
9740 0.915697
9745 0.915309
9750 0.914892
9755 0.914457
9760 0.913997
9765 0.913515
9770 0.913011
9775 0.91249
9780 0.911946
9785 0.911388
9790 0.910814
9795 0.910228
9800 0.909634
9805 0.909027
9810 0.908413
9815 0.907791
9820 0.907154
9825 0.906506
9830 0.905859
9835 0.905202
9840 0.904541
9845 0.903882
9850 0.903226
9855 0.902574
9860 0.901929
9865 0.90128
9870 0.900626
9875 0.899977
9880 0.899339
9885 0.898713
9890 0.898096
9895 0.897486
9900 0.896889
9905 0.896307
9910 0.895735
9915 0.895175
9920 0.894635
9925 0.894112
9930 0.893599
9935 0.893101
9940 0.892618
9945 0.892159
9950 0.891721
9955 0.891299
9960 0.890896
9965 0.890512
9970 0.890142
9975 0.889792
9980 0.889468
9985 0.889164
9990 0.888882
9995 0.888622
10000 0.888379
10005 0.88816
10010 0.887961
10015 0.887785
10020 0.887636
10025 0.887512
10030 0.887411
10035 0.887339
10040 0.887294
10045 0.887268
10050 0.887265
10055 0.887287
10060 0.887333
10065 0.887401
10070 0.887487
10075 0.887596
10080 0.887728
10085 0.887879
10090 0.888052
10095 0.88825
10100 0.888468
10105 0.888712
10110 0.888984
10115 0.88928
10120 0.889597
10125 0.889937
10130 0.890292
10135 0.890669
10140 0.891071
10145 0.891497
10150 0.891945
10155 0.892412
10160 0.892897
10165 0.893402
10170 0.893922
10175 0.894449
10180 0.894992
10185 0.895555
10190 0.896139
10195 0.896743
10200 0.897364
10205 0.897997
10210 0.898646
10215 0.899306
10220 0.899977
10225 0.900661
10230 0.901371
10235 0.902098
10240 0.902835
10245 0.903582
10250 0.904342
10255 0.905107
10260 0.905868
10265 0.906626
10270 0.907379
10275 0.908133
10280 0.908891
10285 0.90966
10290 0.910435
10295 0.911209
10300 0.911979
10305 0.912749
10310 0.913527
10315 0.914306
10320 0.915082
10325 0.915859
10330 0.916633
10335 0.917408
10340 0.918177
10345 0.918943
10350 0.919703
10355 0.920456
10360 0.921198
10365 0.921935
10370 0.922665
10375 0.923389
10380 0.924116
10385 0.924839
10390 0.925543
10395 0.926231
10400 0.926905
10405 0.927569
10410 0.928222
10415 0.928864
10420 0.929492
10425 0.930104
10430 0.930699
10435 0.931281
10440 0.931855
10445 0.932422
10450 0.932979
10455 0.93352
10460 0.934041
10465 0.934551
10470 0.935048
10475 0.935521
10480 0.935973
10485 0.93641
10490 0.936825
10495 0.937225
10500 0.937609
10505 0.937982
10510 0.938338
10515 0.938677
10520 0.939007
10525 0.93932
10530 0.939616
10535 0.939892
10540 0.940154
10545 0.940393
10550 0.940609
10555 0.940808
10560 0.940989
10565 0.941154
10570 0.941304
10575 0.941439
10580 0.941559
10585 0.941666
10590 0.941755
10595 0.941825
10600 0.941879
10605 0.941917
10610 0.941945
10615 0.94195
10620 0.941936
10625 0.941911
10630 0.941876
10635 0.941823
10640 0.941757
10645 0.941685
10650 0.941596
10655 0.941483
10660 0.941362
10665 0.941234
10670 0.941088
10675 0.940927
10680 0.940755
10685 0.940572
10690 0.940374
10695 0.940167
10700 0.939952
10705 0.93973
10710 0.939496
10715 0.939251
10720 0.939004
10725 0.938749
10730 0.938482
10735 0.938209
10740 0.937925
10745 0.93764
10750 0.93735
10755 0.937052
10760 0.936746
10765 0.93644
10770 0.936132
10775 0.935816
10780 0.9355
10785 0.935179
10790 0.934861
10795 0.934545
10800 0.934221
10805 0.933889
10810 0.933558
10815 0.933232
10820 0.932905
10825 0.932576
10830 0.932243
10835 0.93191
10840 0.931585
10845 0.931266
10850 0.930949
10855 0.930627
10860 0.930299
10865 0.929971
10870 0.92965
10875 0.929334
10880 0.929016
10885 0.928707
10890 0.928409
10895 0.928122
10900 0.927843
10905 0.927567
10910 0.927291
10915 0.927014
10920 0.926735
10925 0.926462
10930 0.9262
10935 0.925948
10940 0.925702
10945 0.925469
10950 0.92499
10955 0.889546
10960 0.824289
10965 0.720819
10970 0.585665
10975 0.44829
10980 0.310447
10985 0.175513
10990 0.0536495
10995 0
